#Edit this file only if you know what you are doing. Format is important including comments.

#Baseline distances between the Daya Bay detector and the reactor cores.

#Hall EH1-AD1
DB1   362.380
DB2   371.763
LA1   903.466
LA2   817.158
LA3  1353.618
LA4  1265.315

#Hall EH1-AD2
DB1   357.940
DB2   368.414
LA1   903.347
LA2   816.896
LA3  1354.229
LA4  1265.886

#Hall EH2-AD1
DB1  1332.479
DB2  1358.148
LA1   467.574
LA2   489.577
LA3   557.579
LA4   499.207

#Hall EH2-AD2
DB1  1337.429
DB2  1362.876
LA1   472.971
LA2   495.346
LA3   558.707
LA4   501.071

#Hall EH3-AD1
DB1  1919.632
DB2  1894.337
LA1  1533.180
LA2  1533.628
LA3  1551.384
LA4  1524.940

#Hall EH3-AD2
DB1  1917.519
DB2  1891.977
LA1  1534.919
LA2  1535.032
LA3  1554.767
LA4  1528.079

#Hall EH3-AD3
DB1  1925.255
DB2  1899.861
LA1  1538.930
LA2  1539.468
LA3  1556.344
LA4  1530.078

#Hall EH3-AD4
DB1  1923.149
DB2  1897.507
LA1  1540.667
LA2  1540.872
LA3  1559.721
LA4  1533.179


#Reactor rated output power in GW
DB1   1.0
DB2   1.0
LA1   1.0
LA2   1.0
LA3   1.0
LA4   1.0


#Fractional SNF spectrum as a function of antineutrino energy (energy is bin center in MeV)
#ALL VALUES IN PERCENT!!
#Taken from Fig 3 X. B. Ma et al. http://arxiv.org/pdf/1512.07353v1.pdf
#day\\MeV
       |  1.75    2.00    2.25    2.50    2.75    3.00    3.25    3.50    3.75
-------------------------------------------------------------------------------
1      |  1.526   1.636   1.579   0.901   0.810   0.609   0.210   0.166   0.022
2      |  1.268   1.410   1.410   0.757   0.697   0.578   0.204   0.160   0.021
7      |  0.995   1.155   1.203   0.703   0.666   0.562   0.201   0.154   0.019
14     |  0.826   0.976   1.030   0.688   0.653   0.553   0.198   0.151   0.016
30     |  0.628   0.747   0.807   0.662   0.628   0.537   0.195   0.148   0.013
326    |  0.276   0.330   0.358   0.342   0.327   0.279   0.113   0.088   0.009
1000   |  0.091   0.104   0.107   0.078   0.075   0.066   0.035   0.025   0.006
2000   |  0.041   0.044   0.038   0.013   0.009   0.008   0.006   0.003   0.003
-------------------------------------------------------------------------------


#Parameterization of SNF spectrum is quadruple exponential decay for each energy column above
#Function = [0]*exp(-[4]*x)+[1]*exp(-[5]*x)+[2]*exp(-[6]*x)+[3]*exp(-[7]*x)
#Table of best fit parameters
       | 1.75        2.00         2.25         2.50        2.75         3.00         3.25         3.50         3.75
-------------------------------------------------------------------------------------------------------------------------
[0]    | 1.0038100   0.0497877    0.7375420    0.8256726    0.6630533    0.3303913    0.1987484    0.1617907    0.0062204
[1]    | 0.4774160   0.8791561    0.7444886    0.0018000    0.8486449    0.5430369   -0.1967150   -0.0099755   -0.0172336
[2]    | 0.6848260   0.5944523    0.0735724    0.0187711    0.0070697    0.1505124    0.0264717    0.0128704    0.0220464
[3]    | 0.0945817   0.7714627    0.6436599    0.7059267    0.0116188   -0.3046023    0.1993507    0.9770638    0.0114572
[4]    | 1.1617500   0.0001375    0.0564718    1.5298498    0.0022181    0.0090811    0.0017385    0.0018676    0.0023487
[5]    | 0.0027607   1.2033069    1.4989035   -0.0005142    1.8703794    0.0021088    0.0188662    0.0230595    0.0015545
[6]    | 0.0657748   0.0022832    0.0004040    0.1573013    0.0009084    1.2948916    1.1089315    0.2179660    0.0008907
[7]    | 0.0004418   0.0563404    0.0024088    0.0022422    0.0912155    0.0101433    0.0174710    5.5211549    0.0557973
-------------------------------------------------------------------------------------------------------------------------

#Daya Bay measured antineutrino cross section spectrum. Units are 10^-42 cm^2/(MeV*fission)
#Ebin          Counts (a.u.)
#Center Width
-----------------------
1.9625  0.325  0.034477
2.250   0.250  0.077748
2.500   0.250  0.108281
2.750   0.250  0.134919
3.000   0.250  0.152351
3.250   0.250  0.168423
3.500   0.250  0.176122
3.750   0.250  0.176904
4.000   0.250  0.172415
4.250   0.250  0.162089
4.500   0.250  0.147522
4.750   0.250  0.132759
5.000   0.250  0.122081
5.250   0.250  0.111900
5.500   0.250  0.098351
5.750   0.250  0.086058
6.000   0.250  0.072249
6.250   0.250  0.057817
6.500   0.250  0.046326
6.750   0.250  0.036815
7.000   0.250  0.027485
7.250   0.250  0.019048
7.500   0.250  0.013182
7.750   0.250  0.009092
8.000   0.250  0.005541
10.0625 3.875  0.000389
-----------------------
